#Wave		#Intensity
958.857422	547.171509
957.363281	567.251160
955.869141	527.045715
954.375000	550.421204
952.880859	548.698914
951.386719	560.357971
949.892578	565.323914
948.396484	555.236755
946.902344	565.217651
945.406250	531.721863
943.912109	545.045654
942.416016	573.411987
940.919922	539.923279
939.423828	513.126343
937.927734	549.841736
936.433594	479.599915
934.935547	454.486511
933.439453	437.731506
931.943359	399.262329
930.447266	415.923279
928.949219	394.165741
927.453125	360.722412
925.955078	343.984314
924.458984	362.312012
922.960938	353.923950
921.462891	353.883759
919.964844	352.174103
918.466797	330.437927
916.968750	335.405396
915.470703	353.719269
913.972656	353.677246
912.474609	335.285919
910.974609	330.241760
909.476563	315.192352
907.976563	353.505707
906.476563	343.458313
904.976563	313.408295
903.478516	363.374573
901.978516	344.995453
900.476563	318.288544
898.976563	329.911133
897.476563	329.868439
895.974609	351.480621
894.474609	318.123138
892.972656	371.372131
891.472656	329.694580
889.970703	346.299408
888.468750	331.270569
886.966797	327.896667
885.464844	324.523407
883.962891	341.118713
882.458984	334.416412
880.957031	331.042786
879.453125	350.955963
877.951172	359.221802
876.447266	364.159332
874.943359	332.518158
873.439453	332.470459
871.935547	357.354187
870.431641	340.683624
868.925781	333.987396
867.421875	372.150269
865.916016	320.600037
864.412109	342.144104
862.906250	347.075073
861.400391	347.023071
859.894531	371.873047
858.388672	376.796448
856.882813	341.886658
855.375000	428.122711
853.869141	366.668945
852.361328	364.953522
850.853516	364.896942
849.345703	366.498505
847.839844	374.731720
846.330078	419.434631
844.822266	358.037872
843.314453	406.043427
841.804688	407.635864
840.296875	369.464508
838.787109	422.414001
837.277344	427.314697
835.767578	430.557526
834.257813	440.421906
832.748047	438.694611
831.238281	440.277954
829.726563	461.719391
828.216797	512.936890
826.705078	512.851929
825.193359	524.345276
823.681641	563.949219
822.169922	577.083069
820.658203	583.599121
819.146484	560.359009
817.632813	578.443909
816.119141	550.254578
814.607422	543.552307
813.093750	523.637207
811.580078	508.683289
810.066406	520.154785
808.550781	467.233002
807.037109	480.357819
805.521484	455.518005
804.007813	433.986847
802.492188	496.605408
800.976563	466.826263
799.460938	432.109497
797.943359	445.225189
796.427734	453.389984
794.912109	469.793610
793.394531	520.801392
791.876953	535.538879
790.359375	518.968018
788.841797	536.994507
787.324219	587.952759
785.806641	605.959839
784.287109	622.313782
782.769531	605.740784
781.250000	630.316956
779.730469	617.038818
778.210938	615.281189
776.691406	605.299744
775.169922	615.056091
773.650391	570.548889
772.128906	494.823151
770.607422	498.019165
769.085938	558.730103
767.564453	556.983643
766.042969	558.523010
764.521484	602.764160
762.998047	658.483337
761.476563	637.017029
759.953125	659.878723
758.429688	666.319763
756.906250	695.730347
755.382813	743.175781
753.857422	759.438232
752.333984	724.855896
750.808594	719.799866
749.283203	734.417358
747.757813	778.531250
746.232422	707.919006
744.707031	724.168030
743.181641	732.220154
741.654297	656.743103
740.126953	664.804565
738.601563	654.854309
737.074219	656.365295
735.544922	615.326416
734.017578	633.205933
732.490234	618.360901
730.960938	557.725708
729.431641	547.806335
727.902344	524.811218
726.373047	537.786255
724.843750	506.630219
723.314453	537.577148
721.783203	545.640686
720.253906	511.234192
718.722656	558.491821
717.191406	470.216919
715.660156	525.625732
714.126953	483.089172
712.595703	499.311737
711.062500	504.107880
709.531250	474.648987
707.998047	508.801788
706.464844	518.484192
704.929688	493.929901
703.396484	490.572723
701.861328	454.626984
700.328125	452.907837
698.792969	433.271973
697.257813	473.899017
695.722656	437.984650
694.187500	437.897614
692.650391	460.596222
691.113281	434.468933
689.578125	431.128601
688.041016	418.030029
686.503906	445.592865
684.964844	414.611298
683.427734	461.670868
681.888672	432.323547
680.351563	435.486938
678.812500	415.904205
677.273438	453.179718
675.734375	480.696411
674.193359	488.718170
672.654297	452.906921
671.113281	451.192902
669.572266	423.516785
668.031250	444.522034
666.490234	459.030670
664.949219	445.964691
663.406250	450.738892
661.865234	442.542816
660.322266	413.280762
658.779297	422.919647
657.236328	482.776245
655.693359	432.467163
654.148438	442.096130
652.605469	484.102600
651.060547	482.385925
649.515625	496.854034
647.970703	548.532288
646.425781	567.834351
644.878906	611.389954
643.333984	606.414734
641.787109	703.298462
640.240234	677.292603
638.693359	662.610107
637.146484	730.338989
635.599609	775.423767
634.050781	768.805786
632.503906	794.486572
630.955078	766.878967
629.406250	716.684387
627.857422	769.794983
626.306641	755.117004
624.757813	713.021057
623.207031	740.294373
621.658203	712.731079
620.107422	670.669250
618.554688	714.052979
617.003906	691.346313
615.453125	702.484009
613.900391	697.508423
612.347656	692.534851
610.794922	645.697571
609.242188	693.862854
607.689453	722.693726
606.136719	738.638977
604.582031	799.627075
603.027344	879.893311
601.474609	916.703979
599.917969	1040.327637
598.363281	1093.166504
596.808594	1075.264038
595.251953	1083.079834
593.697266	1076.432861
592.140625	1058.544556
590.583984	1077.600708
589.027344	1059.719360
587.468750	984.054199
585.912109	1006.323730
584.353516	985.258484
582.794922	959.388733
581.236328	968.817627
579.677734	947.772766
578.119141	939.563232
576.558594	944.181274
574.998047	883.086792
573.439453	971.037720
571.878906	950.013794
570.318359	957.829346
568.755859	956.033325
567.195313	973.450928
565.632813	893.215942
564.070313	933.045044
562.507813	876.852295
560.945313	886.272949
559.382813	858.902527
557.820313	845.935303
556.255859	777.015442
554.691406	794.441101
553.126953	781.494873
551.562500	776.542969
549.998047	787.568176
548.433594	718.729980
546.867188	752.118408
545.300781	771.124512
543.734375	711.908691
542.167969	774.004211
540.601563	767.465393
539.035156	845.476929
537.466797	851.685669
535.898438	798.891907
534.332031	895.981140
532.761719	919.709473
531.193359	989.643433
529.625000	1206.133423
528.054688	1339.700928
526.486328	1720.077515
524.916016	2815.262939
523.345703	5751.976563
521.775391	14197.977539
520.203125	13784.541992
518.632813	5723.044922
517.060547	2619.949219
515.488281	1685.845459
513.916016	1273.670410
512.343750	1100.128174
510.771484	945.729431
509.197266	826.353760
507.625000	749.924316
506.050781	751.362305
504.476563	706.742310
502.902344	701.836975
501.328125	673.120361
499.751953	687.270508
498.177734	664.916016
496.601563	650.503540
495.025391	624.992859
493.449219	628.039734
491.873047	626.328430
490.294922	632.544495
488.718750	637.173035
487.140625	610.106018
485.562500	608.399780
483.984375	579.765259
482.406250	609.740601
480.826172	611.202393
479.248047	579.418335
477.667969	607.793091
476.087891	642.486511
474.507813	700.898621
472.927734	762.451172
471.347656	876.169861
469.765625	1057.835815
468.185547	1142.994263
466.603516	1262.891968
465.021484	1340.074463
463.439453	1312.948975
461.855469	1467.493774
460.273438	1452.988525
458.689453	1561.652710
457.107422	1695.533203
455.523438	1755.176025
453.937500	1858.981689
452.353516	1875.968750
450.769531	1845.625610
449.183594	1772.711426
447.597656	1691.942139
446.011719	1634.852661
444.425781	1494.246582
442.839844	1516.013794
441.253906	1388.091675
439.666016	1324.806396
438.080078	1311.945068
436.492188	1310.111328
434.904297	1262.622437
433.314453	1245.058960
431.726563	1257.403198
430.138672	1233.554077
428.548828	1264.772949
426.958984	1270.814819
425.369141	1302.014160
423.779297	1303.329834
422.189453	1391.097534
420.597656	1400.252930
419.005859	1546.103027
417.416016	1746.878418
415.824219	2140.761719
414.232422	2809.295410
412.638672	4025.498779
411.046875	6894.116699
409.453125	13201.711914
407.859375	18529.289063
406.265625	13882.080078
404.671875	8264.246094
403.078125	4884.812012
401.484375	3178.032227
399.888672	2250.990967
398.292969	1767.841064
396.699219	1555.958984
395.103516	1383.325684
393.505859	1312.570313
391.910156	1293.520874
390.312500	1355.895264
388.716797	1753.239014
387.119141	2770.200684
385.521484	5409.438965
383.923828	8811.105469
382.324219	9474.149414
380.726563	7024.854004
379.126953	4717.238281
377.527344	3486.039307
375.927734	2741.396973
374.328125	2343.950928
372.728516	2049.774170
371.128906	1807.259399
369.527344	1611.690918
367.925781	1541.111938
366.324219	1409.677246
364.722656	1331.361328
363.121094	1281.164795
361.519531	1199.784058
359.916016	1173.031128
358.312500	1143.169434
356.708984	1050.948486
355.105469	1086.598755
353.501953	1017.804871
351.898438	1023.838867
350.292969	1015.847961
348.687500	1026.553101
347.083984	962.496887
345.478516	963.865295
343.871094	906.073669
342.265625	888.774231
340.660156	835.688477
339.052734	882.201904
337.445313	808.915222
335.837891	755.876221
334.230469	768.167786
332.623047	757.134094
331.013672	758.539734
329.404297	759.944763
327.796875	741.150085
326.187500	717.702332
324.578125	678.732056
322.966797	703.444214
321.357422	725.041504
319.746094	704.719543
318.134766	689.061279
316.523438	679.615662
314.912109	722.918884
313.300781	715.021179
311.689453	728.836487
310.076172	733.343872
308.462891	695.996521
306.849609	708.257324
305.236328	686.424438
303.623047	709.526367
302.009766	690.799377
300.394531	655.045410
298.779297	668.849976
297.166016	687.292847
295.548828	721.204773
293.933594	727.250916
292.318359	784.346741
290.701172	751.709534
289.085938	722.177979
287.468750	692.658081
285.851563	689.428467
284.232422	683.109009
282.615234	627.346008
280.998047	599.412903
279.378906	588.481140
277.759766	534.314270
276.140625	545.014954
274.521484	527.925720
272.900391	604.986511
271.281250	538.515076
269.660156	549.205872
268.039063	532.129028
266.417969	573.658447
264.796875	576.626404
263.175781	554.929565
261.552734	553.276367
259.929688	539.296936
258.306641	580.782349
256.683594	571.423401
255.060547	546.668945
253.437500	578.889648
251.812500	597.243469
250.189453	618.667664
248.564453	573.920532
246.939453	567.650146
245.312500	616.751343
243.687500	608.936707
242.060547	645.709778
240.435547	676.319336
238.808594	666.959961
237.181641	709.843811
235.552734	717.378479
233.925781	769.448853
232.296875	829.175049
230.669922	884.270752
229.041016	1003.808105
227.410156	1032.756836
225.781250	1089.309448
224.152344	1020.056885
222.521484	1016.777527
220.890625	988.966614
219.259766	1016.353638
217.628906	993.151672
215.998047	1000.605408
214.365234	903.879700
212.734375	882.246460
211.101563	883.592285
209.468750	878.813110
207.833984	832.706360
206.201172	846.303894
204.568359	824.703857
202.933594	813.820801
201.298828	786.118469
199.664063	811.945679
198.027344	768.967224
196.392578	782.558899
194.755859	816.009888
193.121094	766.945923
191.484375	826.351868
189.845703	865.879272
188.208984	879.433777
186.572266	867.032043
184.933594	872.948975
183.294922	833.088745
181.656250	866.468079
180.017578	858.653748
178.376953	861.515991
176.736328	894.866028
175.097656	833.704407
173.457031	758.854919
171.814453	705.366455
170.173828	740.243042
168.533203	778.149353
166.890625	741.437988
165.248047	709.308838
163.605469	735.021362
161.960938	768.329285
160.318359	733.172180
158.673828	752.777893
157.029297	763.251831
155.384766	766.120239
153.740234	782.664490
152.095703	777.929382
150.449219	773.195923
148.802734	747.202271
147.156250	765.252380
145.509766	731.681396
143.863281	702.678284
142.214844	656.997620
140.566406	675.050049
138.917969	588.447205
137.269531	688.384705
135.621094	682.161438
133.970703	553.180115
132.320313	592.446655
130.669922	571.100220
129.019531	587.625916
127.369141	551.148438
125.716797	569.184082
124.064453	559.969055
122.412109	559.836426
120.759766	537.012756
119.107422	497.563721
117.453125	486.860931
115.800781	441.395477
114.146484	418.620453
112.490234	412.476013
110.835938	386.697235
109.181641	389.623901
107.525391	377.450775
105.869141	363.773865
104.212891	341.048950
102.554688	312.300110
100.896484	321.273254
99.240234	313.654236
97.582031	324.129700
95.921875	328.570892
94.263672	325.475433
92.603516	310.329590
90.943359	325.312653
89.283203	305.656799
87.623047	343.212738
85.960938	326.571625
84.300781	355.075348
82.638672	336.934906
80.974609	348.879211
79.312500	308.197937
77.648438	344.191162
75.986328	314.049805
74.322266	277.914764
72.656250	258.318542
70.992188	208.703079
69.326172	202.644272
67.660156	162.072922
65.994141	141.026367
64.328125	133.489716
62.660156	95.967186
60.992188	56.965374
59.324219	47.958050
57.656250	22.474319
55.986328	7.489429
